<?xml version="1.0" encoding="UTF-8"?>
<Bundle xmlns="http://hl7.org/fhir">
    <!--  <Bundle xmlns:xhtml="http://www.w3.org/1999/xhtml"
        xmlns="http://hl7.org/fhir"
        xmlns:xsi="http://www.w3.org/2001/XMLSchema-instance"
        xsi:schemaLocation="http://hl7.org/fhir file:../schema/fhir/bundle.xsd"> -->
   
     <!--1#- ระบุเอกสาร-->
     <!-- Requires-->
    <id value="Clinicsp02"/>    
     
     <!--2#- ระบุ OID ของ สพธอ.-->
     <!-- Requires-->
     <identifier> 
         <system value="https://oid.estandard.or.th"/> 
         <value value="2.17.764.1.4.100.17.7.1.1"/> 
     </identifier> 
     
     <!--3#- ระบุประเภท document -->
     <!-- Requires-->      
     <type value="document"/>
     
     <!--4#- วันที่สร้างเอกสาร -->
     <!--Requires : dbl-10: A document must have a date [(type='document') implies (timestamp.hasValue())] -->
     <timestamp value="2020-10-20T17:09:21Z"/>
     
     <!--5# ข้อมูลที่เกี่ยวข้องกับเอกสาร -->
     <!-- Requires : Bundle entry missing a fullURL-->
     <entry>
         <!--5.1# URL ระบุทรัพยากรไฟล์เอกสารบน Server-->
         <!--Requires : Bundle entry missing a fullURL -->    
         <fullUrl value="https://schemas.teda.th/Composition/1"/>
         
         <!--5.2. ระบุทรัพยากรที่เกี่ยวข้องกับเอกสาร  -->
         <resource>
             <!--5.2.1 รายละเอียดของเอกสาร-->
             <!--Requires : dbl-11 A document must have a Composition as the first resource type = 'document' implies entry.first().resource.is(Composition)-->
             <Composition>
                 <!--5.2.1.1# ส่วนที่ระบุรายละเอียดของเอกสาร -->
                 <!--Requires : Resource Requires an id-->
                 <id value="1"/>
                 
                 <!--5.2.1.2# VersionNumber เพิ่ม/แก้ไข-->
                 <extension
                     url="http://hl7.org/fhir/StructureDefinition/composition-clinicaldocument-versionNumber">
                     <!--Example Element: extension : http://hl7.org/fhir/extension-composition-clinicaldocument-versionnumber.html-->
                     <!-- ?? 1..1 Value of extension versionNumber: Version specific identifier for the composition, assigned when each version is created/updated-->
                     <valueString value="1.0.0"/>
                 </extension>
                 
                 <!--5.2.1.3 ข้อมูลเลขที่หนังสือรับรอง -->
                 <identifier id="[ใบอนุญาตที่]"/>
                 
                 <!--5.2.1.4# สถานะของเอกสาร-->
                 <!-- Requires-->
                 <status value="final"/>
               
                 <!--5.2.1.5# รหัสประเภทเอกสาร:http://loinc.org -->
                 <!--https://www.hl7.org/fhir/valueset-doc-typecodes.html-->
                 <!-- Requires-->
                 <type>
                     <text value="ส.พ.2"/>
                 </type>
                 
                
                 <!--5.2.1.6# วันที่ออกเอกสาร-->
                 <!-- Requires-->
                 <date value="2013-02-01T12:30:02Z"/>
                 
                 <!--5.2.1.7# ผู้ยื่นข้อมูล-->
                 <!-- Requires-->
                 <author>
                     <reference value="Practitioner/p2"/>
                 </author>       
                 
                 <!--5.2.1.8# ชื่อเอกสาร-->
                 <!-- Requires-->
                 <title value="แผนงานการจัดตั้งสถานพยาบาลประเภทที่ไม่รับผู้ป่วยไว้ค้างคืน"/>      
                 
                 <!--5.2.1.9# ผู้อนุมัติ-->
                 <attester>
                     <mode value="official"/>
                     <party>
                         <reference value="Practitioner/p3"/>
                     </party>     
                     
                 </attester>                
                 
                 
                 <!--5.2.1.10# ข้อมูลเกี่ยวกับใบอนุญาต-->
                 <!-- Requires-->
                 <event>
                     <detail>                         
                         <reference value="https://schemas.teda.th/Observation/O1"/>
                     </detail>
                 </event>
                 
             </Composition>
             
         </resource>
     </entry>
    
    <!-- 6# ข้อมูลประวัติสุขภาพ -->
    <entry>
        <fullUrl value="https://schemas.teda.th/Observation/O1"/> 
        <resource> 
            <!--6.2.1. ข้อมูลประวัติสุขภาพ--> 
            <Observation> 
                <!--6.2.1.1 ข้อมูลประวัติสุขภาพ--> 
                <id value="1.2"/>   
                <!--6.2.1.2 สถานะข้อมูลประวัติสุขภาพ--> 
                <status value="final"/>
                <!--6.2.1.3 รหัสข้อมูล--> 
                <code>
                    <coding>
                        <!--Hospital discharge physical findings records a narrative description of the patient's physical findings-->
                        <system value="http://loinc.org"/> 
                        <code value="10184-0"/>               
                    </coding>  
                </code>
                <!--6.2.1.4 อ้างถึงคำถามประวัติสุขภาพ--> 
                <hasMember>
                    <reference value="https://schemas.teda.th/QuestionnaireResponse/qr"/>
                </hasMember>
            </Observation>
        </resource>  
    </entry>
    
    
     <!-- 7# ข้อมูลของสถานพยาบาล และผู้ดำเนินการสถานพยาบาล-->
     <entry>
         <!-- 7.1# URL ระบุทรัพยากรไฟล์เอกสารบน Server-->
         <!--Requires : Bundle entry missing a fullURL -->
         <fullUrl value="https://schemas.teda.th/QuestionnaireResponse/qr"/>
         <!--7.2# ระบุทรัพยากรที่เกี่ยวข้องกับใบอนุญาตแผนงานการจัดตั้งสถานพยาบาลประเภทที่ไม่รับผู้ป่วยไว้ค้างคืน  -->
         <resource>
             <!--7.2.1 ข้อมูลแพทย์ใบอนุญาตแผนงานการจัดตั้งสถานพยาบาลประเภทที่ไม่รับผู้ป่วยไว้ค้างคืน-->
             <QuestionnaireResponse>
                 <!--7.2.1.1 ส่วนที่ระบุรายการของเอกสาร -->
                 <!-- Requires-->
                 <id value="qr"/>
                 <!--7.2.1.2 ส่วนที่ระบุชื่อของฟอร์มแบบสอบถาม -->
                 <identifier id="ส.พ.2"></identifier>
                 <!-- 7.2.1.3# สถานะของแบบสอบถาม -->
                 <status value="completed"></status>
                 
                 <!-- 7.2.1.4# ข้อมูลผู้ขอทำแบบสอบถาม -->
                 <source>
                     <!-- 7.2.1.4.1# ชื่อนามสกุลผู้ขออนุญาต -->
                     <display value="ชื่อนามสกุลผู้ขออนุญาต"/>
                 </source>
                 
                 <!-- 7.2.1.5# ข้อมูลชุดที่ 1 ประเภทของสถานพยาบาล -->
                 <item>
                     <linkId value="1"></linkId>
                     <text value="สถานพยาบาลมีลักษณะเป็น" />
                     <answer>
                         <valueString value="คลินิกเวชกรรม"/>
                     </answer>
                     <answer>
                         <valueString value="คลินิกเวชกรรมเฉพาะทาง หรือ สหคลินิกประกอบด้วย"/> <!-- กรณีเลือกสหคลินิกต้องระบุว่าประกอบด้วยคลินิกอะไรบ้าง -->
                     </answer>
                 </item>
                 <!-- 7.2.1.6# บริการที่จัดให้มีเพิ่มเติม -->
                 <item>
                     <linkId value="2"></linkId>
                     <text value="บริการที่จัดให้มีเพิ่มเติม" />
                     <answer>
                         <valueString value="ห้องเอ็กซเรย์ ห้องไตเทียม ห้องผ่าตัด ห้องฝังเข็ม อื่น ๆ คือ..."/>
                     </answer>
                 </item>
                 <!-- 7.2.1.7# ลักษณะอาคารสถานพยาบาล -->
                 <item>
                     <linkId value="3"></linkId>
                     <text value="ลักษณะอาคารสถานพยาบาล" />
                     <answer>
                         <valueString value="เป็นอาคารสถานพยาบาลโดยเฉพาะ"/> <!-- เป็นอาคารสถานพยาบาลโดยเฉพาะ , เป็นอาคารอยู่อาศัย , อื่นๆ -->
                     </answer>
                     <answer>
                         <valueString value="อธิบายเพิ่มเติมกรณีเลือกอื่นๆ"/>
                     </answer>
                 </item>
                 
                 <!-- 7.2.1.8# พื้นที่ -->
                 <item>
                     <linkId value="4"></linkId>
                     <item>
                         <linkId value="4.1"></linkId>
                         <text value="พื้นที่ทั้งหมด"></text>
                         <answer>
                             <!-- พื้นที่ทั้งหมด หน่วยเป็น ตร.ม. -->
                             <valueDecimal value="100.52"/>
                         </answer>
                     </item>
                     <item>
                         <linkId value="4.2"></linkId>
                         <text value="กว้าง"/>
                         <answer>
                             <!-- กว้าง หน่วยเป็น เมตร -->
                             <valueDecimal value="10"/>
                         </answer>
                     </item>
                     <item>
                         <linkId value="4.3"></linkId>
                         <text value="ยาว"/>
                         <answer>
                             <!-- ยาว หน่วยเป็น เมตร -->
                             <valueDecimal value="10"/>
                         </answer>
                     </item>
                     <item>
                         <linkId value="4.4"></linkId>
                         <text value="สูง"/>
                         <answer>
                             <!-- สูง หน่วยเป็น เมตร -->
                             <valueDecimal value="10"/>
                         </answer>
                     </item>
                 </item>
                 
                 <!-- 7.2.1.9# จำนวนของผู้ประกอบวิชาชีพ -->
                 <item>
                     <linkId value="5"></linkId>
                     <text value="จำนวนของผู้ประกอบวิชาชีพ"/>
                     <answer>
                         <!-- จำนวนคน -->
                         <valueInteger value="100"/>
                     </answer>
                 </item>
                 
                 <!-- 7.2.1.10# ผู้ดำเนินการสถานพยาบาลชื่อ  -->
                 <item>
                     <linkId value="6"></linkId>
                     <item>
                         <linkId value="7.1"></linkId>
                         <text value="ผู้ดำเนินการสถานพยาบาลชื่อ" />
                         <answer>
                             <valueString value="ชื่อ-นามสกุล"/>
                         </answer>
                     </item>
                     <item>
                         <linkId value="7.2"></linkId>
                         <text value="เลขที่ใบอนุญาตประกอบวิชาชีพ" />
                         <answer>
                             <valueString value="ก.123-456"/>
                         </answer>
                     </item>
                 </item>
                 
                 <!-- 7.2.1.11#  ระยะเวลาในการดำเนินการตามแผนงานการจดัตั้งสถานพยาบาล  วันนับแต่วันยื่นแบบ ส.พ.๑ -->
                 <item>
                     <linkId value="7"></linkId>
                     <text value="ระยะเวลาในการดำเนินการตามแผนงานการจัดตั้งสถานพยาบาล"/>
                     <answer>
                         <valueInteger value="3"/>
                     </answer>
                 </item>
             </QuestionnaireResponse>
         </resource>
     </entry>
     
     <!--8# ข้อมูลผู้รับผิดชอบเอกสาร-->
     <entry>
         <fullUrl value="https://schemas.teda.th/Practitioner/p2"/>
         <resource>
             <Practitioner>
                 <!-- 8.2.1.1# ส่วนที่ระบุรายละเอียดของผู้รับรองเอกสาร-->
                 <id value="p2"/>
                 
                 <!-- 8.2.1.2# ชื่อผู้รับรองข้อมูล-->
                 <name>
                     <text value="[ระบุชื่อ-นามสกุลลผู้รับรองข้อมูล]"/>
                 </name>
                 
             </Practitioner>
         </resource>
     </entry>
    
    <!--9# ผู้อนุมัติ-->
    <entry>
        <fullUrl value="https://schemas.teda.th/Practitioner/p3"/>
        <resource>
            <Practitioner>
                <!-- 9.2.1.1# ส่วนที่ระบุรายละเอียดของผู้อนุมัติเอกสาร-->
                <id value="p3"/>
                
                <!-- 9.2.1.2# ชื่อผู้อนุมัติข้อมูล-->
                <name>
                    <text value="[ระบุชื่อ-นามสกุลลผู้รับรองข้อมูล]"/>
                </name>
                
            </Practitioner>
        </resource>
    </entry>
    
     <!--10# ลายเซ็นรับรองเอกสาร-->
     <signature>
         <type>
             <system value="urn:iso-astm:E1762-95:2013"/>  
             <!--Author's Signature--> 
             <code value="1.2.840.10065.1.12.1.2"/>   
         </type>
         <when value="2015-08-31T07:42:33+10:00"/>
         <who>
             <display value="[หน่วยงานที่รับรองเอกสาร]"/>
         </who>
         <!--    a real document would typically have an digital signature, but
    the publishing tools are not yet setup to produce a valid digital
    signature. For now, an image of a signature    -->
         <!--<data value=""/>-->
         <data value="MTIzNA=="/>
     </signature>

 </Bundle>